condsFile,readyMsg,stimFile,Valence,trials.thisRepN,trials.thisTrialN,trials.thisN,trials.thisIndex,trials_2.thisRepN,trials_2.thisTrialN,trials_2.thisN,trials_2.thisIndex,conditionsLoop.thisRepN,conditionsLoop.thisTrialN,conditionsLoop.thisN,conditionsLoop.thisIndex,experimentalLoop.thisRepN,experimentalLoop.thisTrialN,experimentalLoop.thisN,experimentalLoop.thisIndex,key_resp_2.keys,key_resp_2.rt,key_resp_3.keys,key_resp_3.rt,key_resp_4.keys,key_resp_4.rt,respTask.keys,respTask.rt,session,participant,date,expName,frameRate,
,,,,,,,,,,,,,,,,,,,,t,1.623507853000774,,,,,,,001,,2018_Sep_10_1608,TBPMnBack,59.966814005540115,
practiceBlock.csv,Pronto,stims/008.i.jpg,Practice,0,0,0,0,0,0,0,7,,,,,,,,,,,t,1.2990101270006562,,,,,001,,2018_Sep_10_1608,TBPMnBack,59.966814005540115,
practiceBlock.csv,Pronto,stims/001.i.jpg,Practice,0,0,0,0,0,1,1,0,,,,,,,,,,,,,,,,,001,,2018_Sep_10_1608,TBPMnBack,59.966814005540115,
practiceBlock.csv,Pronto,stims/019.i.jpg,Practice,0,0,0,0,0,2,2,18,,,,,,,,,,,,,,,,,001,,2018_Sep_10_1608,TBPMnBack,59.966814005540115,
practiceBlock.csv,Pronto,stims/014.i.jpg,Practice,0,0,0,0,0,3,3,13,,,,,,,,,,,,,,,,,001,,2018_Sep_10_1608,TBPMnBack,59.966814005540115,
practiceBlock.csv,Pronto,stims/003.i.jpg,Practice,0,0,0,0,0,4,4,2,,,,,,,,,,,,,,,,,001,,2018_Sep_10_1608,TBPMnBack,59.966814005540115,
practiceBlock.csv,Pronto,stims/010.i.jpg,Practice,0,0,0,0,0,5,5,9,,,,,,,,,,,,,,,,,001,,2018_Sep_10_1608,TBPMnBack,59.966814005540115,
practiceBlock.csv,Pronto,stims/018.i.jpg,Practice,0,0,0,0,0,6,6,17,,,,,,,,,,,,,,,,,001,,2018_Sep_10_1608,TBPMnBack,59.966814005540115,
practiceBlock.csv,Pronto,stims/005.i.jpg,Practice,0,0,0,0,0,7,7,4,,,,,,,,,,,,,,,,,001,,2018_Sep_10_1608,TBPMnBack,59.966814005540115,
practiceBlock.csv,Pronto,stims/017.i.jpg,Practice,0,0,0,0,0,8,8,16,,,,,,,,,,,,,,,,,001,,2018_Sep_10_1608,TBPMnBack,59.966814005540115,
practiceBlock.csv,Pronto,stims/021.i.jpg,Practice,0,0,0,0,0,9,9,20,,,,,,,,,,,,,,,,,001,,2018_Sep_10_1608,TBPMnBack,59.966814005540115,
practiceBlock.csv,Pronto,stims/012.i.jpg,Practice,0,0,0,0,0,10,10,11,,,,,,,,,,,,,,,,,001,,2018_Sep_10_1608,TBPMnBack,59.966814005540115,
practiceBlock.csv,Pronto,stims/004.i.jpg,Practice,0,0,0,0,0,11,11,3,,,,,,,,,,,,,,,,,001,,2018_Sep_10_1608,TBPMnBack,59.966814005540115,
practiceBlock.csv,Pronto,stims/009.i.jpg,Practice,0,0,0,0,0,12,12,8,,,,,,,,,,,,,,,,,001,,2018_Sep_10_1608,TBPMnBack,59.966814005540115,
practiceBlock.csv,Pronto,stims/013.i.jpg,Practice,0,0,0,0,0,13,13,12,,,,,,,,,,,,,,,,,001,,2018_Sep_10_1608,TBPMnBack,59.966814005540115,
practiceBlock.csv,Pronto,stims/011.i.jpg,Practice,0,0,0,0,0,14,14,10,,,,,,,,,,,,,,,,,001,,2018_Sep_10_1608,TBPMnBack,59.966814005540115,
practiceBlock.csv,Pronto,stims/002.i.jpg,Practice,0,0,0,0,0,15,15,1,,,,,,,,,,,,,,,,,001,,2018_Sep_10_1608,TBPMnBack,59.966814005540115,
practiceBlock.csv,Pronto,stims/020.i.jpg,Practice,0,0,0,0,0,16,16,19,,,,,,,,,,,,,,,,,001,,2018_Sep_10_1608,TBPMnBack,59.966814005540115,
practiceBlock.csv,Pronto,stims/022.i.jpg,Practice,0,0,0,0,0,17,17,21,,,,,,,,,,,,,,,,,001,,2018_Sep_10_1608,TBPMnBack,59.966814005540115,
practiceBlock.csv,Pronto,stims/015.i.jpg,Practice,0,0,0,0,0,18,18,14,,,,,,,,,,,,,,,,,001,,2018_Sep_10_1608,TBPMnBack,59.966814005540115,
practiceBlock.csv,Pronto,stims/006.i.jpg,Practice,0,0,0,0,0,19,19,5,,,,,,,,,,,,,,,,,001,,2018_Sep_10_1608,TBPMnBack,59.966814005540115,
practiceBlock.csv,Pronto,stims/007.i.jpg,Practice,0,0,0,0,0,20,20,6,,,,,,,,,,,,,,,,,001,,2018_Sep_10_1608,TBPMnBack,59.966814005540115,
practiceBlock.csv,Pronto,stims/016.i.jpg,Practice,0,0,0,0,0,21,21,15,,,,,,,,,,,,,,,,,001,,2018_Sep_10_1608,TBPMnBack,59.966814005540115,
practiceBlock.csv,Pronto,,,0,0,0,0,,,,,,,,,,,,,,,,,,,,,001,,2018_Sep_10_1608,TBPMnBack,59.966814005540115,
,,,,,,,,,,,,,,,,,,,,,,,,t,5.806553316000645,,,001,,2018_Sep_10_1608,TBPMnBack,59.966814005540115,
negativeBlock.csv,Pronto,stims/7820.jpg,Negative,,,,,,,,,0,0,0,0,0,0,0,17,,,,,,,t,5.30743744800202,001,,2018_Sep_10_1608,TBPMnBack,59.966814005540115,
negativeBlock.csv,Pronto,stims/8050.jpg,Negative,,,,,,,,,0,0,0,0,0,1,1,19,,,,,,,,,001,,2018_Sep_10_1608,TBPMnBack,59.966814005540115,
negativeBlock.csv,Pronto,stims/8116.jpg,Negative,,,,,,,,,0,0,0,0,0,2,2,20,,,,,,,,,001,,2018_Sep_10_1608,TBPMnBack,59.966814005540115,
negativeBlock.csv,Pronto,stims/6314.jpg,Negative,,,,,,,,,0,0,0,0,0,3,3,11,,,,,,,,,001,,2018_Sep_10_1608,TBPMnBack,59.966814005540115,
negativeBlock.csv,Pronto,stims/4180.jpg,Negative,,,,,,,,,0,0,0,0,0,4,4,5,,,,,,,,,001,,2018_Sep_10_1608,TBPMnBack,59.966814005540115,
negativeBlock.csv,Pronto,stims/4490.jpg,Negative,,,,,,,,,0,0,0,0,0,5,5,6,,,,,,,,,001,,2018_Sep_10_1608,TBPMnBack,59.966814005540115,
negativeBlock.csv,Pronto,stims/7237.jpg,Negative,,,,,,,,,0,0,0,0,0,6,6,15,,,,,,,,,001,,2018_Sep_10_1608,TBPMnBack,59.966814005540115,
negativeBlock.csv,Pronto,stims/2850.jpg,Negative,,,,,,,,,0,0,0,0,0,7,7,1,,,,,,,,,001,,2018_Sep_10_1608,TBPMnBack,59.966814005540115,
negativeBlock.csv,Pronto,stims/4525.jpg,Negative,,,,,,,,,0,0,0,0,0,8,8,8,,,,,,,,,001,,2018_Sep_10_1608,TBPMnBack,59.966814005540115,
negativeBlock.csv,Pronto,stims/7190.jpg,Negative,,,,,,,,,0,0,0,0,0,9,9,14,,,,,,,,,001,,2018_Sep_10_1608,TBPMnBack,59.966814005540115,
negativeBlock.csv,Pronto,stims/4530.jpg,Negative,,,,,,,,,0,0,0,0,0,10,10,9,,,,,,,,,001,,2018_Sep_10_1608,TBPMnBack,59.966814005540115,
negativeBlock.csv,Pronto,stims/7180.jpg,Negative,,,,,,,,,0,0,0,0,0,11,11,13,,,,,,,,,001,,2018_Sep_10_1608,TBPMnBack,59.966814005540115,
negativeBlock.csv,Pronto,stims/4003.jpg,Negative,,,,,,,,,0,0,0,0,0,12,12,4,,,,,,,,,001,,2018_Sep_10_1608,TBPMnBack,59.966814005540115,
negativeBlock.csv,Pronto,stims/7130.jpg,Negative,,,,,,,,,0,0,0,0,0,13,13,12,,,,,,,,,001,,2018_Sep_10_1608,TBPMnBack,59.966814005540115,
negativeBlock.csv,Pronto,stims/4520.jpg,Negative,,,,,,,,,0,0,0,0,0,14,14,7,,,,,,,,,001,,2018_Sep_10_1608,TBPMnBack,59.966814005540115,
negativeBlock.csv,Pronto,stims/9045.jpg,Negative,,,,,,,,,0,0,0,0,0,15,15,21,,,,,,,,,001,,2018_Sep_10_1608,TBPMnBack,59.966814005540115,
negativeBlock.csv,Pronto,stims/5535.jpg,Negative,,,,,,,,,0,0,0,0,0,16,16,10,,,,,,,,,001,,2018_Sep_10_1608,TBPMnBack,59.966814005540115,
negativeBlock.csv,Pronto,stims/7496.jpg,Negative,,,,,,,,,0,0,0,0,0,17,17,16,,,,,,,,,001,,2018_Sep_10_1608,TBPMnBack,59.966814005540115,
negativeBlock.csv,Pronto,stims/7830.jpg,Negative,,,,,,,,,0,0,0,0,0,18,18,18,,,,,,,,,001,,2018_Sep_10_1608,TBPMnBack,59.966814005540115,
negativeBlock.csv,Pronto,stims/2312.jpg,Negative,,,,,,,,,0,0,0,0,0,19,19,0,,,,,,,,,001,,2018_Sep_10_1608,TBPMnBack,59.966814005540115,
negativeBlock.csv,Pronto,stims/4001.jpg,Negative,,,,,,,,,0,0,0,0,0,20,20,3,,,,,,,,,001,,2018_Sep_10_1608,TBPMnBack,59.966814005540115,
negativeBlock.csv,Pronto,stims/4000.jpg,Negative,,,,,,,,,0,0,0,0,0,21,21,2,,,,,,,,,001,,2018_Sep_10_1608,TBPMnBack,59.966814005540115,
negativeBlock.csv,Pronto,,,,,,,,,,,0,0,0,0,,,,,,,,,,,,,001,,2018_Sep_10_1608,TBPMnBack,59.966814005540115,
NeutralBlock.csv,Pronto,stims/7190.jpg,Neutral,,,,,,,,,0,1,1,1,0,0,0,14,,,,,,,t,12.988817433000804,001,,2018_Sep_10_1608,TBPMnBack,59.966814005540115,
NeutralBlock.csv,Pronto,stims/2850.jpg,Neutral,,,,,,,,,0,1,1,1,0,1,1,1,,,,,,,,,001,,2018_Sep_10_1608,TBPMnBack,59.966814005540115,
NeutralBlock.csv,Pronto,stims/4525.jpg,Neutral,,,,,,,,,0,1,1,1,0,2,2,8,,,,,,,,,001,,2018_Sep_10_1608,TBPMnBack,59.966814005540115,
NeutralBlock.csv,Pronto,stims/4530.jpg,Neutral,,,,,,,,,0,1,1,1,0,3,3,9,,,,,,,,,001,,2018_Sep_10_1608,TBPMnBack,59.966814005540115,
NeutralBlock.csv,Pronto,stims/7130.jpg,Neutral,,,,,,,,,0,1,1,1,0,4,4,12,,,,,,,,,001,,2018_Sep_10_1608,TBPMnBack,59.966814005540115,
NeutralBlock.csv,Pronto,stims/4003.jpg,Neutral,,,,,,,,,0,1,1,1,0,5,5,4,,,,,,,,,001,,2018_Sep_10_1608,TBPMnBack,59.966814005540115,
NeutralBlock.csv,Pronto,stims/7496.jpg,Neutral,,,,,,,,,0,1,1,1,0,6,6,16,,,,,,,,,001,,2018_Sep_10_1608,TBPMnBack,59.966814005540115,
NeutralBlock.csv,Pronto,stims/7830.jpg,Neutral,,,,,,,,,0,1,1,1,0,7,7,18,,,,,,,,,001,,2018_Sep_10_1608,TBPMnBack,59.966814005540115,
NeutralBlock.csv,Pronto,stims/4490.jpg,Neutral,,,,,,,,,0,1,1,1,0,8,8,6,,,,,,,,,001,,2018_Sep_10_1608,TBPMnBack,59.966814005540115,
NeutralBlock.csv,Pronto,stims/7237.jpg,Neutral,,,,,,,,,0,1,1,1,0,9,9,15,,,,,,,,,001,,2018_Sep_10_1608,TBPMnBack,59.966814005540115,
NeutralBlock.csv,Pronto,stims/2312.jpg,Neutral,,,,,,,,,0,1,1,1,0,10,10,0,,,,,,,,,001,,2018_Sep_10_1608,TBPMnBack,59.966814005540115,
NeutralBlock.csv,Pronto,stims/4000.jpg,Neutral,,,,,,,,,0,1,1,1,0,11,11,2,,,,,,,,,001,,2018_Sep_10_1608,TBPMnBack,59.966814005540115,
NeutralBlock.csv,Pronto,stims/4520.jpg,Neutral,,,,,,,,,0,1,1,1,0,12,12,7,,,,,,,,,001,,2018_Sep_10_1608,TBPMnBack,59.966814005540115,
NeutralBlock.csv,Pronto,stims/7820.jpg,Neutral,,,,,,,,,0,1,1,1,0,13,13,17,,,,,,,,,001,,2018_Sep_10_1608,TBPMnBack,59.966814005540115,
NeutralBlock.csv,Pronto,stims/7180.jpg,Neutral,,,,,,,,,0,1,1,1,0,14,14,13,,,,,,,,,001,,2018_Sep_10_1608,TBPMnBack,59.966814005540115,
NeutralBlock.csv,Pronto,stims/4180.jpg,Neutral,,,,,,,,,0,1,1,1,0,15,15,5,,,,,,,,,001,,2018_Sep_10_1608,TBPMnBack,59.966814005540115,
NeutralBlock.csv,Pronto,stims/4001.jpg,Neutral,,,,,,,,,0,1,1,1,0,16,16,3,,,,,,,,,001,,2018_Sep_10_1608,TBPMnBack,59.966814005540115,
NeutralBlock.csv,Pronto,stims/6314.jpg,Neutral,,,,,,,,,0,1,1,1,0,17,17,11,,,,,,,,,001,,2018_Sep_10_1608,TBPMnBack,59.966814005540115,
NeutralBlock.csv,Pronto,stims/8116.jpg,Neutral,,,,,,,,,0,1,1,1,0,18,18,20,,,,,,,,,001,,2018_Sep_10_1608,TBPMnBack,59.966814005540115,
NeutralBlock.csv,Pronto,stims/9045.jpg,Neutral,,,,,,,,,0,1,1,1,0,19,19,21,,,,,,,,,001,,2018_Sep_10_1608,TBPMnBack,59.966814005540115,
NeutralBlock.csv,Pronto,stims/8050.jpg,Neutral,,,,,,,,,0,1,1,1,0,20,20,19,,,,,,,,,001,,2018_Sep_10_1608,TBPMnBack,59.966814005540115,
NeutralBlock.csv,Pronto,stims/5535.jpg,Neutral,,,,,,,,,0,1,1,1,0,21,21,10,,,,,,,,,001,,2018_Sep_10_1608,TBPMnBack,59.966814005540115,
NeutralBlock.csv,Pronto,,,,,,,,,,,0,1,1,1,,,,,,,,,,,,,001,,2018_Sep_10_1608,TBPMnBack,59.966814005540115,
